t_ms,ax,ay,az,emg_env,emg_raw
110338,0.23127,0.46452,0.82515,0.0,0.7373
110354,0.23112,0.46408,0.82601,0.12,0.9146
110370,0.2312,0.46464,0.82535,0.2877,0.5214
110386,0.23212,0.46429,0.82457,0.1893,0.0798
110401,0.23211,0.46364,0.82348,0.0,0.0709
110418,0.23125,0.46471,0.82542,0.0,0.7293
110434,0.23091,0.46447,0.82525,0.1362,0.9138
110450,0.23071,0.46424,0.82569,0.2869,0.4924
110466,0.23086,0.46438,0.82586,0.1837,0.083
110481,0.23145,0.46485,0.82538,0.0,0.0701
110498,0.23153,0.46447,0.82549,0.0,0.7188
110514,0.23,0.46428,0.82428,0.141,0.8993
110530,0.23094,0.46474,0.82617,0.2893,0.4924
110546,0.23103,0.46496,0.82532,0.1789,0.0846
110561,0.23185,0.46443,0.82671,0.0,0.0669
110578,0.23121,0.46408,0.82436,0.0,0.7059
110594,0.23144,0.46386,0.82659,0.1273,0.8816
110610,0.2307,0.46465,0.8266,0.2957,0.4787
110626,0.23026,0.46521,0.82643,0.1861,0.0854
110641,0.23066,0.4648,0.82384,0.0,0.0628
110658,0.23141,0.46444,0.82452,0.0,0.689
110674,0.23158,0.46389,0.82542,0.137,0.8671
110690,0.23177,0.46562,0.8254,0.3086,0.494
110706,0.23151,0.46497,0.82586,0.1877,0.0838
110722,0.23026,0.46473,0.82452,0.0,0.0
110738,0.22981,0.46435,0.8256,0.0,0.6172
110754,0.23096,0.46415,0.82499,0.1176,0.8711
110770,0.23103,0.46543,0.82559,0.3344,0.606
110786,0.2313,0.46492,0.82496,0.2063,0.1265
110803,0.2308,0.46434,0.82422,0.0,0.0
110819,0.23007,0.46424,0.82487,0.0,0.552
110835,0.23161,0.46485,0.82535,0.0798,0.8566
110851,0.23105,0.46466,0.82563,0.328,0.6987
110867,0.23068,0.46521,0.82522,0.2619,0.1636
110882,0.23153,0.4644,0.82585,0.0,0.0
110899,0.23078,0.46415,0.82439,0.0,0.5633
110915,0.23116,0.46439,0.8267,0.0927,0.8663
110931,0.23232,0.46483,0.82537,0.328,0.689
110947,0.23074,0.46492,0.82604,0.2538,0.1644
110963,0.23077,0.46509,0.82547,0.0024,0.0
110979,0.23086,0.46418,0.82639,0.0,0.4843
110995,0.23014,0.46481,0.82552,0.0226,0.8591
111011,0.23135,0.46566,0.82544,0.307,0.7809
111027,0.23129,0.46469,0.82442,0.2764,0.2232
111043,0.23174,0.46344,0.82439,0.0234,0.0
111060,0.23052,0.46487,0.82364,0.0,0.3586
111076,0.23067,0.46418,0.82672,0.0,0.8429
111092,0.23124,0.46492,0.82494,0.249,0.8542
111108,0.2312,0.46354,0.82566,0.3062,0.2998
111124,0.23215,0.46456,0.82374,0.0491,0.0
111140,0.23125,0.46402,0.82628,0.0,0.2345
111156,0.23043,0.46547,0.82527,0.0,0.8115
111172,0.23113,0.46401,0.82697,0.1861,0.8985
111188,0.23114,0.46435,0.82567,0.3054,0.3827
111205,0.22971,0.46383,0.8258,0.1104,0.0153
111221,0.23167,0.46476,0.82435,0.0,0.1128
111237,0.23146,0.46416,0.82589,0.0,0.7631
111253,0.23079,0.46592,0.82568,0.1523,0.9259
111269,0.23066,0.46389,0.82579,0.2925,0.4634
111284,0.2311,0.46486,0.8248,0.0918,0.0024
111301,0.23117,0.46381,0.82679,0.0,0.1096
111317,0.23157,0.46524,0.82587,0.0,0.7688
111333,0.23096,0.46476,0.8241,0.1523,0.934
111349,0.22998,0.46548,0.82423,0.2861,0.4618
111364,0.23154,0.4641,0.82634,0.2006,0.1088
111382,0.23093,0.46475,0.82494,0.0,0.0
111398,0.23147,0.46476,0.82483,0.0,0.6447
111414,0.23159,0.46438,0.82409,0.1217,0.9525
111430,0.23179,0.4651,0.82685,0.3376,0.7059
111446,0.23061,0.4669,0.82496,0.2297,0.1587
111462,0.23124,0.46278,0.8249,0.0,0.0
111478,0.23166,0.46301,0.82515,0.0,0.5818
111494,0.23068,0.46495,0.82573,0.0669,0.9453
111511,0.23059,0.46363,0.82377,0.332,0.7784
111527,0.23009,0.46369,0.82471,0.2756,0.2054
111543,0.23099,0.46313,0.82748,0.0169,0.0
111559,0.23092,0.46469,0.81931,0.0,0.4738
111575,0.23196,0.4618,0.83232,0.0008,0.9243
111591,0.22957,0.46412,0.81931,0.2957,0.8824
111607,0.23287,0.46178,0.83256,0.2933,0.2732
111623,0.2317,0.4656,0.82017,0.0371,0.0
111639,0.23188,0.46134,0.82928,0.0,0.3425
111656,0.23206,0.46267,0.82234,0.0,0.8824
111672,0.23186,0.46229,0.82543,0.2409,0.9009
111688,0.23198,0.46217,0.82701,0.3231,0.3441
111704,0.23129,0.46397,0.82284,0.0548,0.0
111720,0.2327,0.46042,0.82813,0.0,0.1998
111735,0.23153,0.4631,0.82218,0.0,0.8615
111752,0.23168,0.46444,0.82927,0.2345,0.8719
111768,0.23124,0.46469,0.82428,0.3296,0.3199
111784,0.23048,0.46344,0.82508,0.062,0.0
111800,0.23072,0.46298,0.8282,0.0,0.1926
111815,0.23064,0.46476,0.8231,0.0,0.8341
111832,0.23204,0.46288,0.82604,0.2321,0.8446
111848,0.23074,0.46439,0.82479,0.3255,0.3038
111864,0.23155,0.46512,0.82525,0.062,0.0
111880,0.23025,0.46411,0.82601,0.0,0.1797
111895,0.23059,0.46401,0.82468,0.0,0.8074
111912,0.23122,0.46309,0.8251,0.2184,0.8341
111928,0.23228,0.46611,0.82478,0.3191,0.3006
111944,0.22981,0.46868,0.8277,0.0749,0.0
111960,0.22863,0.46614,0.82539,0.0,0.174
111975,0.22976,0.46522,0.82467,0.0,0.7937
111992,0.23093,0.4654,0.82426,0.2321,0.8091
112008,0.23201,0.46412,0.82702,0.3151,0.3038
112024,0.23113,0.46218,0.82484,0.0733,0.0
112040,0.23063,0.46228,0.82542,0.0,0.1636
112055,0.23097,0.46393,0.82657,0.0,0.7937
112072,0.23089,0.46486,0.82502,0.2184,0.8195
112088,0.23132,0.46451,0.82615,0.3086,0.3046
112104,0.23158,0.46391,0.82296,0.0927,0.0008
112120,0.23166,0.46265,0.82556,0.0,0.1499
112135,0.23082,0.46379,0.82533,0.0,0.7905
112152,0.23132,0.46401,0.82439,0.2054,0.8317
112168,0.23028,0.46267,0.82601,0.3175,0.3392
112184,0.23101,0.46361,0.82512,0.0846,0.0008
112200,0.23141,0.46478,0.82594,0.0,0.1329
112215,0.23128,0.46486,0.82527,0.0,0.7921
112232,0.23099,0.46328,0.82653,0.1829,0.8341
112248,0.23067,0.46389,0.82604,0.3167,0.3296
112264,0.23145,0.46474,0.8249,0.0967,0.004
112280,0.23037,0.46297,0.82619,0.0,0.1297
112295,0.23136,0.46425,0.82585,0.0,0.7857
112312,0.23175,0.4644,0.82618,0.2022,0.8437
112328,0.23092,0.46388,0.82583,0.3078,0.34
112344,0.2309,0.46389,0.8247,0.1096,0.0081
112360,0.23242,0.46312,0.825,0.0,0.1176
112375,0.23232,0.46407,0.8244,0.0,0.7889
112392,0.23071,0.46568,0.82476,0.1861,0.847
112408,0.23121,0.46392,0.82636,0.3135,0.3505
112424,0.23167,0.46311,0.82639,0.1144,0.0169
112440,0.23129,0.46405,0.82554,0.0,0.1104
112455,0.23051,0.4641,0.82552,0.0,0.7945
112472,0.23193,0.46396,0.82639,0.1748,0.884
112488,0.23064,0.46365,0.82516,0.2965,0.3642
112504,0.23132,0.46328,0.8259,0.1329,0.0201
112520,0.23092,0.46489,0.82474,0.0,0.083
112535,0.23093,0.46292,0.82619,0.0,0.8115
112552,0.23161,0.46379,0.82567,0.1877,0.9082
112568,0.23154,0.46396,0.82567,0.3086,0.4085
112584,0.23035,0.46494,0.82545,0.1345,0.0266
112600,0.23061,0.46384,0.82626,0.0,0.0773
112616,0.23129,0.46425,0.8255,0.0,0.7639
112632,0.2313,0.46524,0.82566,0.145,0.9517
112648,0.2312,0.46399,0.82594,0.3086,0.498
112664,0.23147,0.46385,0.82521,0.1861,0.0806
112681,0.23117,0.46417,0.82476,0.0,0.0
112697,0.2319,0.46415,0.8251,0.0,0.7027
112713,0.23105,0.46361,0.82597,0.0411,0.9493
112730,0.23128,0.46466,0.82675,0.3215,0.8558
112746,0.23213,0.46383,0.82531,0.2772,0.2401
112762,0.23095,0.46371,0.8251,0.0282,0.0
112778,0.23122,0.46428,0.82589,0.0,0.4207
112794,0.23091,0.46382,0.82528,0.0064,0.9195
112811,0.23137,0.46338,0.82512,0.2748,0.913
112827,0.23218,0.4645,0.82467,0.3054,0.3038
112843,0.23098,0.46437,0.82528,0.0443,0.0
112859,0.23053,0.46295,0.82582,0.0,0.2748
112875,0.23094,0.46421,0.82449,0.0,0.8744
112891,0.23056,0.46436,0.82536,0.2168,0.9388
112907,0.23021,0.46378,0.82679,0.3167,0.3924
112923,0.23172,0.46447,0.82547,0.0782,0.0
112939,0.23107,0.46359,0.82456,0.0,0.1619
112955,0.23061,0.46424,0.82613,0.0,0.8115
112972,0.23161,0.46379,0.82611,0.17,0.9743
112988,0.23033,0.4645,0.82575,0.2941,0.4473
113004,0.23144,0.46371,0.82533,0.1531,0.0572
113020,0.2306,0.4637,0.82521,0.0,0.0306
113035,0.23061,0.46395,0.825,0.0,0.8115
113052,0.23149,0.4632,0.82549,0.166,0.9718
113068,0.23073,0.46376,0.82422,0.2917,0.4601
113084,0.23125,0.46424,0.82515,0.1724,0.0596
113100,0.23084,0.46324,0.82623,0.0,0.0129
113115,0.23236,0.46444,0.82552,0.0,0.8147
113132,0.23132,0.46521,0.82608,0.1474,0.9759
113148,0.23098,0.46363,0.82586,0.2869,0.4754
113164,0.23147,0.46335,0.82633,0.1652,0.0685
113180,0.23111,0.46333,0.82626,0.0,0.0064
113195,0.23103,0.46361,0.82452,0.0,0.8034
113212,0.23198,0.46295,0.8269,0.1345,0.9751
113228,0.23087,0.46394,0.82513,0.2901,0.4787
113244,0.2307,0.46403,0.82542,0.1772,0.0717
113260,0.23116,0.46327,0.82576,0.0,0.0
113276,0.2312,0.46296,0.82547,0.0,0.7341
113292,0.23139,0.46438,0.82558,0.1313,0.9952
113308,0.23111,0.46432,0.8261,0.3167,0.6132
113324,0.23096,0.46301,0.82549,0.199,0.1233
113340,0.23106,0.4638,0.82463,0.0,0.0
113357,0.23144,0.46445,0.82587,0.0,0.6544
113373,0.23156,0.46364,0.82564,0.1144,1.0097
113389,0.2307,0.46383,0.82604,0.3409,0.7341
113405,0.23104,0.46343,0.82631,0.2409,0.1668
113421,0.23028,0.46363,0.82529,0.0,0.0
113436,0.23166,0.46435,0.82551,0.0,0.6616
113453,0.23053,0.46378,0.82523,0.1152,1.0
113469,0.23054,0.46389,0.82608,0.3344,0.7373
113485,0.23094,0.46369,0.82536,0.2418,0.1636
113501,0.23112,0.46334,0.82601,0.0,0.0
113517,0.23089,0.46375,0.82534,0.0,0.5858
113533,0.23098,0.46395,0.82567,0.062,0.9791
113549,0.2316,0.46335,0.82521,0.3038,0.8437
113565,0.23163,0.46414,0.82545,0.2796,0.2264
113581,0.23071,0.46471,0.82599,0.0081,0.0
113598,0.23215,0.46311,0.82565,0.0,0.4537
113614,0.23172,0.46394,0.82497,0.0105,0.9461
113630,0.23001,0.46441,0.82708,0.282,0.9187
113646,0.2315,0.46376,0.8259,0.2925,0.3014
113662,0.23195,0.46412,0.8259,0.0411,0.0
113678,0.23006,0.46391,0.82478,0.0,0.3118
113694,0.23182,0.46351,0.82741,0.0,0.9001
113710,0.23077,0.46336,0.82532,0.2152,0.9477
113726,0.23175,0.46392,0.82599,0.303,0.3836
113743,0.23163,0.46434,0.82556,0.0693,0.0
113759,0.23107,0.46375,0.82492,0.0,0.1764
113775,0.23103,0.46347,0.82583,0.0,0.8405
113791,0.2313,0.46352,0.82534,0.1829,0.9735
113807,0.23207,0.46399,0.82565,0.2748,0.4859
113823,0.23133,0.46439,0.82621,0.1394,0.0387
113839,0.23053,0.46359,0.82537,0.0,0.0371
113855,0.23043,0.46406,0.82489,0.0,0.7663
113871,0.23041,0.46375,0.82579,0.1386,0.9855
113888,0.2308,0.46466,0.8246,0.2941,0.5963
113904,0.23107,0.46423,0.82704,0.1909,0.1104
113920,0.23077,0.46415,0.82534,0.0,0.0
113936,0.23095,0.46409,0.82509,0.0,0.6874
113952,0.23173,0.46418,0.82617,0.1273,1.0033
113967,0.23076,0.46425,0.8266,0.3054,0.6181
113984,0.23146,0.46341,0.82554,0.1764,0.1088
114000,0.23099,0.46423,0.8259,0.0,0.0
114016,0.23069,0.46423,0.82546,0.0,0.6858
114032,0.23087,0.46421,0.82632,0.1249,0.9904
114047,0.23156,0.46317,0.82513,0.3086,0.5899
114064,0.23154,0.46364,0.82546,0.2667,0.2176
114081,0.23125,0.46396,0.82626,0.0073,0.0
114097,0.23006,0.46383,0.82439,0.0,0.498
114112,0.23163,0.46439,0.82509,0.0798,0.9855
114129,0.23112,0.46385,0.82527,0.3328,0.8227
114145,0.23068,0.46281,0.82542,0.2683,0.2152
114161,0.23143,0.46429,0.82699,0.0064,0.0
114177,0.23126,0.46369,0.82622,0.0,0.4859
114193,0.23179,0.46407,0.82561,0.0201,0.9485
114209,0.23042,0.46365,0.82584,0.3022,0.8905
114225,0.23073,0.46452,0.82634,0.2796,0.2724
114241,0.23093,0.46375,0.82506,0.0282,0.0
114257,0.23093,0.46395,0.82571,0.0,0.3666
114274,0.2312,0.46333,0.82646,0.0,0.9114
114290,0.23149,0.46273,0.82489,0.2474,0.9324
114306,0.2314,0.46447,0.82638,0.3159,0.3441
114322,0.23152,0.46295,0.8261,0.0564,0.0
114338,0.23154,0.46472,0.82511,0.0,0.2232
114353,0.23161,0.46376,0.82663,0.0,0.909
114370,0.23212,0.46173,0.82656,0.2514,0.934
114386,0.23088,0.46395,0.82551,0.2909,0.3417
114402,0.23123,0.46353,0.82599,0.0483,0.0
114418,0.23211,0.46265,0.82579,0.0,0.216
114434,0.23115,0.46294,0.82549,0.0,0.855
114450,0.23042,0.46645,0.82529,0.1474,0.9654
114466,0.23043,0.46477,0.82569,0.3086,0.4609
114482,0.23125,0.46386,0.82557,0.1233,0.0234
114498,0.23103,0.46454,0.82575,0.0,0.0814
114515,0.23127,0.46345,0.8257,0.0,0.7889
114531,0.23067,0.46241,0.82582,0.145,0.9735
114547,0.23191,0.4623,0.82412,0.2998,0.5842
114563,0.23198,0.46278,0.82548,0.1958,0.0854
114579,0.23139,0.46304,0.82478,0.0,0.0
114594,0.23122,0.4629,0.8247,0.0,0.7889
114611,0.23043,0.46333,0.82471,0.141,0.9775
114627,0.2316,0.46318,0.82653,0.3022,0.5141
114643,0.23169,0.46322,0.82568,0.1845,0.0741
114659,0.23082,0.46251,0.82486,0.0,0.0
114675,0.23154,0.4633,0.82641,0.0,0.7277
114691,0.23071,0.4637,0.82497,0.141,0.9855
114707,0.23117,0.46347,0.82529,0.3207,0.6471
114723,0.23056,0.46363,0.82619,0.1926,0.1321
114739,0.2313,0.46403,0.82697,0.0,0.0
114756,0.23051,0.46483,0.82518,0.0,0.6519
114772,0.23165,0.46352,0.82486,0.1184,0.9904
114788,0.23133,0.46535,0.82656,0.3441,0.768
114804,0.23059,0.46153,0.82497,0.2635,0.1756
114820,0.23063,0.46224,0.82512,0.0,0.0
114836,0.23216,0.46728,0.82808,0.0,0.5576
114852,0.23026,0.45915,0.82297,0.054,0.9614
114868,0.23093,0.45847,0.8224,0.3263,0.8486
114884,0.23026,0.46481,0.8251,0.2764,0.2385
114901,0.23049,0.46639,0.82737,0.0298,0.0
114917,0.23118,0.46282,0.82539,0.0,0.4215
114933,0.23098,0.46213,0.82568,0.004,0.9227
114949,0.23176,0.46406,0.82671,0.2764,0.8993
114965,0.23135,0.4644,0.827,0.299,0.3054
114980,0.23155,0.46217,0.82648,0.0145,0.0
114997,0.23215,0.46345,0.82472,0.0,0.4174
115013,0.23108,0.46317,0.82656,0.0,0.9074
115029,0.23064,0.46423,0.82621,0.2748,0.8873
115045,0.23111,0.46377,0.82471,0.2917,0.2893
115061,0.23112,0.46345,0.82564,0.0459,0.0
115076,0.23072,0.46315,0.8261,0.0,0.4199
115093,0.23069,0.46321,0.82565,0.0073,0.9082
115109,0.23098,0.46337,0.82491,0.278,0.9018
115125,0.23119,0.46482,0.8258,0.2941,0.2901
115141,0.23059,0.46399,0.82453,0.0314,0.0
115157,0.2312,0.46116,0.82534,0.0,0.3006
115173,0.23206,0.46513,0.8263,0.0,0.8663
115189,0.23141,0.46388,0.82546,0.2248,0.9146
115205,0.23174,0.46459,0.82484,0.3094,0.3521
115222,0.23108,0.46406,0.8263,0.0757,0.0
115238,0.23061,0.46426,0.82477,0.0,0.1458
115254,0.2309,0.46286,0.82595,0.0,0.805
115270,0.2306,0.46235,0.82668,0.1652,0.9501
115286,0.23212,0.46447,0.82456,0.2909,0.4279
115301,0.23141,0.46571,0.82493,0.0798,0.0
115318,0.23138,0.46366,0.82534,0.0,0.1386
115334,0.23098,0.46408,0.82544,0.0,0.8139
115350,0.23043,0.46412,0.8257,0.1595,0.9646
115366,0.2319,0.46521,0.82545,0.2941,0.4601
115382,0.23187,0.46473,0.8255,0.1716,0.0596
115398,0.23089,0.4632,0.82444,0.0,0.025
115414,0.23192,0.46399,0.82695,0.0,0.7655
115432,0.23136,0.46289,0.82521,0.0806,0.9952
115448,0.23217,0.46239,0.82714,0.3328,0.8502
115464,0.2312,0.46369,0.8257,0.2812,0.2248
115480,0.23104,0.46374,0.82442,0.0338,0.0
115495,0.23063,0.46399,0.82524,0.0,0.5963
115512,0.23082,0.46388,0.82574,0.0685,1.0041
115528,0.23078,0.46348,0.82598,0.3255,0.8873
115544,0.23163,0.46432,0.82504,0.2869,0.2361
115560,0.23118,0.4632,0.82552,0.0298,0.0
115575,0.23073,0.46421,0.82616,0.0,0.5987
115592,0.23091,0.46346,0.82582,0.0653,1.0033
115608,0.23113,0.46334,0.82623,0.3328,0.8808
115624,0.23165,0.46291,0.82537,0.2861,0.2401
115640,0.2307,0.46335,0.8269,0.0314,0.0
115655,0.23071,0.46354,0.82539,0.0,0.5891
115672,0.23087,0.46432,0.8267,0.0572,1.0049
115688,0.23205,0.46397,0.82596,0.3296,0.8889
115704,0.23165,0.46284,0.8256,0.2917,0.2409
115720,0.23047,0.46336,0.82586,0.0346,0.0
115735,0.23064,0.4639,0.825,0.0,0.5745
115752,0.23111,0.46321,0.82591,0.0443,0.9984
115768,0.2313,0.46356,0.82481,0.3328,0.9066
115784,0.23187,0.46356,0.82555,0.2909,0.2538
115800,0.2317,0.46377,0.82575,0.0314,0.0
115815,0.23187,0.46334,0.82497,0.0,0.56
115832,0.23088,0.46385,0.82436,0.0443,0.9896
115848,0.23134,0.46368,0.82619,0.3255,0.8985
115864,0.23113,0.46399,0.82448,0.2941,0.253
115880,0.23093,0.46368,0.8253,0.0483,0.0
115896,0.23139,0.4635,0.82519,0.0,0.4271
115912,0.23108,0.46402,0.8259,0.0073,0.9565
115928,0.2312,0.46511,0.82551,0.2691,0.9565
115944,0.23048,0.46454,0.82634,0.3086,0.3288
115961,0.23122,0.46405,0.82683,0.0459,0.0
115977,0.23125,0.46429,0.82484,0.0,0.2788
115993,0.23046,0.46329,0.8251,0.0,0.8993
116009,0.23127,0.46424,0.82526,0.2119,0.9727
116025,0.23094,0.4643,0.82656,0.3167,0.3876
116041,0.23162,0.46353,0.82641,0.0999,0.0064
116057,0.23129,0.46353,0.82607,0.0,0.1394
116073,0.23066,0.46461,0.82615,0.0,0.8389
116089,0.23153,0.46346,0.82498,0.166,0.9984
116105,0.23182,0.46326,0.82532,0.3022,0.4763
116122,0.23174,0.46465,0.826,0.1748,0.0636
116138,0.23104,0.46361,0.82676,0.0,0.0153
116154,0.2308,0.46468,0.82565,0.0,0.7639
116170,0.23117,0.46269,0.82598,0.1289,1.0145
116186,0.23079,0.46459,0.82548,0.328,0.6084
116202,0.23126,0.46354,0.82619,0.2022,0.1168
116218,0.23116,0.46488,0.8261,0.0,0.0
116234,0.23125,0.46375,0.82641,0.0,0.6842
116250,0.231,0.46344,0.82579,0.1209,1.0145
116267,0.23117,0.46312,0.82513,0.3529,0.7422
116283,0.23089,0.46325,0.82559,0.2442,0.1732
116299,0.23146,0.46297,0.82515,0.0,0.0
116315,0.22995,0.46253,0.82496,0.0,0.6052
116331,0.23146,0.46407,0.82632,0.0636,1.0033
116346,0.23078,0.46404,0.82565,0.3425,0.7454
116363,0.23156,0.46266,0.82619,0.249,0.1748
116379,0.23132,0.46407,0.82528,0.0,0.0
116395,0.23064,0.46298,0.82438,0.0,0.6181
116411,0.23111,0.46434,0.8256,0.0661,1.021
116427,0.23183,0.46297,0.82635,0.3247,0.8953
116442,0.23154,0.4638,0.8268,0.2409,0.1724
116459,0.23085,0.46378,0.82556,0.0,0.0
116475,0.23053,0.46334,0.82537,0.0,0.6262
116491,0.2323,0.46241,0.82758,0.0709,1.0372
116507,0.2321,0.46375,0.82581,0.3344,0.8856
116523,0.22989,0.46566,0.82184,0.2796,0.2385
116539,0.23037,0.46509,0.82439,0.0185,0.0
116555,0.23124,0.4631,0.82707,0.0,0.5101
116571,0.23076,0.46415,0.82475,0.0097,1.0145
116587,0.23132,0.464,0.82668,0.303,0.9783
116604,0.23088,0.46373,0.82546,0.3038,0.3199
116620,0.23058,0.46434,0.82312,0.0427,0.0
116636,0.16106,0.57652,1.0642,0.0,0.3537
116652,0.272,0.87276,0.84459,0.0,0.9453
116668,0.64041,0.73914,1.6426,0.2377,0.9984
116683,0.25092,0.37595,1.19568,0.2957,0.2949
116700,-0.06045,0.2481,0.1785,0.0379,0.0
116716,-0.07164,-0.25863,-0.5851,0.0,0.3691
116732,0.10792,0.40073,-0.38796,0.0,0.9082
116748,0.19296,0.90506,-0.14158,0.2393,0.9759
116764,0.1082,-0.34764,0.28745,0.3135,0.4101
116781,0.31807,0.6257,1.47399,0.1893,0.0878
116798,0.28833,0.1301,1.12694,0.0,0.0
116814,0.20049,0.52109,0.7592,0.0,0.5745
116830,0.15928,0.60284,0.61954,0.1257,0.8961
116846,0.26222,0.42598,0.87144,0.328,0.6761
116861,0.23003,0.45696,0.86815,0.1974,0.112
116878,0.24087,0.4914,0.75127,0.0,0.0
116894,0.23051,0.47621,0.81997,0.0,0.6697
116910,0.24025,0.47263,0.81585,0.12,0.9573
116926,0.20964,0.49635,0.82518,0.3296,0.6938
116941,0.22362,0.47789,0.83693,0.1869,0.1184
116958,0.22047,0.48429,0.82622,0.0,0.0
116974,0.22062,0.48415,0.81864,0.0,0.6116
116990,0.23077,0.47289,0.82261,0.12,0.9694
117006,0.2321,0.4735,0.81796,0.332,0.7156
117021,0.22713,0.47975,0.81804,0.199,0.12
117038,0.22523,0.48413,0.81377,0.0,0.0
117054,0.22575,0.48129,0.82102,0.0,0.6229
117070,0.22509,0.48536,0.82949,0.1249,0.971
117086,0.22485,0.51635,0.83104,0.3288,0.743
117102,0.24478,0.29386,0.80108,0.2377,0.1893
117118,0.22292,0.49525,0.79753,0.0,0.0
117134,0.21831,0.55684,0.87229,0.0,0.5472
117150,0.26178,0.3855,0.80342,0.0701,0.9396
117166,0.21277,0.5419,0.82249,0.328,0.8462
117183,0.21516,0.50094,0.78394,0.2635,0.2409
117199,0.22542,0.46862,0.83866,0.0169,0.0
117215,0.23186,0.42391,0.97081,0.0,0.436
117231,0.2261,0.50813,0.76843,0.0185,0.905
117247,0.22155,0.48743,0.8149,0.2667,0.913
117263,0.24066,0.4932,0.80874,0.2804,0.3078
117279,0.22336,0.50229,0.79772,0.0363,0.0
117295,0.23358,0.54356,0.76054,0.0,0.2828
117311,0.22374,0.51307,0.78304,0.0,0.855
117328,0.23183,0.46563,0.83028,0.2361,0.9396
117344,0.2235,0.4729,0.8042,0.3022,0.3827
117360,0.22904,0.44641,0.81404,0.0548,0.0
117376,0.25365,0.35788,0.84904,0.0,0.141
117392,0.21364,0.40353,0.93426,0.0,0.7792
117408,0.20089,0.42103,0.93585,0.1772,0.9469
117424,0.23085,0.49739,0.80482,0.2804,0.4505
117440,0.24723,0.50443,0.79671,0.1345,0.05
117456,0.23405,0.51197,0.79675,0.0,0.0161
117473,0.21334,0.48871,0.85408,0.0,0.7406
117489,0.18952,0.59363,0.82109,0.1354,0.9872
117505,0.27037,0.58351,0.80769,0.2869,0.5915
117521,0.26137,0.63647,0.69486,0.1781,0.1104
117537,0.15512,0.69268,0.64743,0.0,0.0
117553,0.19633,0.70424,0.65864,0.0,0.6874
117569,0.24984,0.73959,0.52239,0.1176,1.0226
117585,0.39513,0.67496,0.52237,0.307,0.7325
117601,0.2421,0.70115,0.56512,0.2103,0.1708
117618,0.24618,0.73791,0.62796,0.0,0.0
117634,0.25356,0.80909,0.57451,0.0,0.6479
117650,0.24769,0.97435,0.41233,0.0991,1.1129
117666,0.30016,0.99346,0.47033,0.3167,0.9259
117682,0.36367,0.80276,0.50195,0.2514,0.2297
117698,0.28535,0.85535,0.24034,0.0129,0.0
117714,0.25895,0.90065,0.20947,0.0,0.5633
117730,0.13879,0.88575,0.18228,0.0443,1.0137
117746,0.04001,0.78848,0.19895,0.2869,0.9783
117763,0.24329,0.8418,0.14949,0.2925,0.278
117779,0.18341,0.92889,0.17825,0.0459,0.0
117795,0.18597,0.97688,0.30992,0.0,0.3924
117811,0.23153,1.03769,0.36111,0.0137,1.0081
117827,0.28997,0.97931,0.28713,0.2667,1.0758
117843,0.27804,0.95795,0.28072,0.3143,0.4085
117859,0.29208,0.9471,0.29028,0.0661,0.0
117875,0.28911,0.93118,0.18219,0.0,0.2724
117891,0.3975,0.95484,0.10936,0.0048,0.9759
117907,0.38705,0.86441,0.25615,0.2152,1.1064
117924,0.38745,0.80215,0.5325,0.3239,0.4376
117940,0.37467,0.80073,0.2888,0.1273,0.0073
117956,0.35926,0.86124,0.33557,0.0,0.1233
117972,0.47167,0.89687,0.31211,0.0,0.9404
117988,0.47329,0.87924,0.27877,0.1918,1.1548
118004,0.44946,0.85661,0.39644,0.3255,0.6503
118020,0.404,0.86819,0.39088,0.2297,0.079
118036,0.41481,0.86861,0.36686,0.0,0.0
118052,0.46975,0.82552,0.34327,0.0,0.8389
118069,0.43159,0.80331,0.32285,0.199,1.1218
118085,0.46148,0.77236,0.29705,0.3715,0.7647
118101,0.33816,0.76283,0.27125,0.3078,0.1523
118117,0.4386,0.72777,0.33629,0.0081,0.0
118133,0.38813,0.72338,0.27739,0.0024,0.4593
118150,0.371,0.76095,0.19289,0.112,0.9517
118166,0.41336,0.78659,0.17748,0.3505,0.9662
118183,0.47368,0.80432,0.2174,0.3666,0.3586
118199,0.46005,0.81091,0.29742,0.12,0.0
118215,0.47473,0.84126,0.24359,0.0,0.3022
118231,0.47313,0.82406,0.25711,0.0701,0.9275
118247,0.40924,0.77925,0.31868,0.303,1.0307
118263,0.39704,0.78983,0.34002,0.3699,0.4287
118279,0.39632,0.78489,0.30785,0.1265,0.0
118295,0.41672,0.76868,0.25,0.0,0.1499
118311,0.43785,0.77455,0.19162,0.0105,0.847
118327,0.47921,0.78376,0.18237,0.2144,1.0484
118344,0.50983,0.82587,0.21506,0.3425,0.5262
118360,0.51945,0.8424,0.29615,0.1869,0.0604
118376,0.5285,0.8905,0.34404,0.0,0.0
118392,0.56318,0.8615,0.39898,0.0,0.7913
118408,0.54984,0.85371,0.39302,0.1829,1.1129
118424,0.52792,0.80368,0.38446,0.3312,0.6858
118440,0.50505,0.75973,0.33389,0.2168,0.1249
118456,0.49485,0.75604,0.30744,0.0,0.0
118473,0.48201,0.73382,0.24865,0.0,0.743
118489,0.47957,0.72263,0.26756,0.1482,1.0758
118505,0.4772,0.7298,0.29844,0.3537,0.7905
118521,0.46133,0.73238,0.33637,0.2393,0.1845
118537,0.48222,0.74969,0.35247,0.0,0.0
118553,0.49939,0.78122,0.36333,0.0,0.6358
118568,0.50562,0.79009,0.36861,0.1619,1.0807
118585,0.50447,0.79754,0.36565,0.3328,0.7905
118601,0.51911,0.80284,0.3591,0.2136,0.1901
118617,0.54728,0.80098,0.36512,0.0,0.0
118633,0.54485,0.81665,0.35883,0.0,0.6246
118649,0.54471,0.80862,0.33308,0.1265,1.0992
118665,0.52346,0.76943,0.31911,0.328,0.7857
118681,0.4984,0.75172,0.28506,0.2393,0.1797
118697,0.50967,0.72157,0.25691,0.0,0.0
118713,0.48867,0.73226,0.26177,0.0,0.6568
118729,0.51332,0.74594,0.26313,0.137,1.0919
118745,0.5577,0.78857,0.26252,0.3312,0.9227
118761,0.56561,0.80431,0.25915,0.2772,0.2393
118777,0.56702,0.77529,0.27241,0.0201,0.0
118793,0.55751,0.75757,0.2333,0.0,0.5818
118809,0.51362,0.71669,0.21585,0.058,1.0694
118826,0.50004,0.70551,0.19942,0.3054,1.0186
118842,0.58395,0.63377,0.38489,0.2828,0.3159
118858,0.47429,0.72425,0.21789,0.0314,0.0
118874,0.4858,0.72837,0.29008,0.0,0.4505
118890,0.49633,0.7547,0.31295,0.0306,1.0041
118906,0.51965,0.78568,0.34278,0.274,1.1032
118922,0.54345,0.82091,0.38676,0.307,0.4069
118938,0.5288,0.81516,0.39316,0.0411,0.0
118955,0.55224,0.81924,0.35914,0.0,0.3272
118971,0.54372,0.82426,0.37193,0.0,1.0936
118987,0.53807,0.83459,0.35262,0.1974,1.2104
119003,0.56353,0.82517,0.33141,0.3038,0.5206
119019,0.55807,0.79348,0.31878,0.083,0.0
119035,0.54889,0.75331,0.31115,0.0,0.1644
119051,0.52745,0.73201,0.30604,0.0,0.9783
119067,0.53019,0.73182,0.27007,0.1539,1.1628
119083,0.5343,0.73929,0.24857,0.2933,0.577
119099,0.53646,0.75648,0.26917,0.1652,0.0701
119116,0.52679,0.74644,0.27129,0.0,0.0008
119132,0.51608,0.74603,0.26722,0.0,0.8026
119148,0.52,0.74654,0.26638,0.1378,1.1024
119164,0.51012,0.72643,0.26031,0.3086,0.7043
119180,0.52192,0.74452,0.30008,0.2046,0.1345
119196,0.51544,0.76447,0.29483,0.0,0.0346
119212,0.52527,0.77335,0.30787,0.0,0.7776
119228,0.53372,0.76802,0.27534,0.1378,1.0992
119244,0.53628,0.76912,0.2679,0.3263,0.693
119260,0.51977,0.75856,0.26191,0.2273,0.1337
119276,0.50634,0.74844,0.28437,0.0,0.0
119292,0.51502,0.73677,0.36376,0.0,0.8018
119308,0.52685,0.76816,0.38785,0.1354,1.1395
119324,0.53702,0.78429,0.41327,0.3199,0.7535
119340,0.53545,0.78122,0.39161,0.2281,0.1184
119356,0.54208,0.7627,0.42561,0.0,0.0064
119372,0.60704,0.76749,0.41712,0.0,0.8203
119388,0.62485,0.75845,0.43003,0.1329,1.0613
119404,0.61412,0.77595,0.38665,0.3263,0.7373
119420,0.60044,0.77018,0.39646,0.1974,0.1482
119436,0.61371,0.75203,0.40825,0.0,0.0
119452,0.65827,0.73729,0.39412,0.0,0.8437
119468,0.6233,0.72404,0.26483,0.1265,1.1403
119484,0.60555,0.6729,0.15363,0.3086,0.9976
119501,0.59146,0.69626,0.10744,0.2748,0.2917
119517,0.59536,0.69746,0.119,0.0266,0.0
119533,0.56054,0.6678,0.1566,0.0,0.4811
119549,0.56926,0.66562,0.18375,0.0016,1.0274
119566,0.60009,0.70866,0.20799,0.2651,0.9984
119582,0.60189,0.71981,0.19834,0.2909,0.365
119598,0.57753,0.68739,0.19026,0.0306,0.0
119614,0.54412,0.64734,0.13982,0.0,0.2909
119630,0.49996,0.57124,0.08656,0.0,0.9243
119646,0.54497,0.62168,0.19904,0.1797,1.0533
119662,0.56411,0.71464,0.25119,0.2804,0.4666
119678,0.66875,0.79596,0.24625,0.0508,0.0
119695,0.61791,0.82057,0.20572,0.0,0.1708
119711,0.60019,0.75422,0.22061,0.0,0.9533
119727,0.59344,0.67687,0.19897,0.1354,1.1306
119743,0.54007,0.68872,0.26743,0.2691,0.5745
119759,0.57068,0.75663,0.27601,0.1273,0.0572
119775,0.57937,0.74423,0.27887,0.0,0.0242
119791,0.55468,0.72603,0.33307,0.0,0.8937
119807,0.54942,0.74671,0.36082,0.0983,1.1628
119823,0.54839,0.75966,0.29477,0.2828,0.739
119840,0.5571,0.7244,0.21976,0.1636,0.1209
119856,0.5927,0.68309,0.23013,0.0,0.0
119872,0.56551,0.71215,0.26355,0.0,0.7865
119888,0.58118,0.7966,0.34521,0.087,1.2047
119904,0.57833,0.80112,0.42773,0.2901,0.8695
119920,0.59498,0.74023,0.37294,0.199,0.1974
119936,0.55548,0.72187,0.29131,0.0,0.0
119952,0.385,0.89913,0.16116,0.0,0.7083
119968,0.29071,-0.12719,-0.22395,0.0556,1.1757
119985,0.12353,-0.24755,-0.31163,0.2885,1.0242
120001,0.32082,0.13046,-0.34335,0.2506,0.2772
120017,-0.03706,0.15503,-0.10226,0.0,0.0
120033,-1.06093,2.0,2.0,0.0,0.5488
120049,0.40953,-0.23756,1.84701,0.0,0.8163
120065,0.25293,0.03027,-0.13413,0.2748,0.8679
120081,0.03926,0.36785,-0.01381,0.2667,0.3586
120097,0.23731,0.37341,1.39251,0.0193,0.0
120113,0.25707,0.45951,1.38546,0.0,0.199
120130,0.13929,0.78404,0.38422,0.0,0.8066
120146,0.25764,0.45408,0.44363,0.2144,0.9453
120162,0.20077,0.62204,0.87409,0.2861,0.4247
120178,0.25998,0.61728,0.83408,0.0218,0.0
120194,0.24296,0.50621,0.71563,0.0,0.1708
120210,0.21643,0.60618,0.75583,0.0,0.7583
120226,0.21084,0.63359,0.80178,0.1539,0.8856
120242,0.21826,0.61075,0.74933,0.2901,0.4569
120258,0.21606,0.59443,0.72862,0.1112,0.0556
120275,0.22137,0.58165,0.75978,0.0,0.0218
120291,0.21914,0.58199,0.75177,0.0,0.6681
120307,0.21655,0.58834,0.73534,0.1233,0.8929
120323,0.22219,0.58295,0.75545,0.2957,0.5472
120339,0.21566,0.5881,0.75216,0.1732,0.1088
