t_ms,ax,ay,az,emg_env,emg_raw
7983,-0.1265,0.0777,0.9727,0.0,0.527
8000,-0.1255,0.0794,0.9647,0.0,0.4424
8016,-0.1268,0.0769,0.9591,0.0,0.0935
8032,-0.1252,0.0771,0.9637,0.0,0.0
8048,-0.1241,0.0779,0.9639,0.0,0.2136
8064,-0.1265,0.0996,1.0059,0.0,0.5053
8080,-0.1192,0.0665,0.9562,0.0,0.4956
8097,-0.1246,0.0834,0.9695,0.0,0.1386
8113,-0.1247,0.0858,0.9565,0.0,0.0016
8129,-0.1239,0.0784,0.955,0.0,0.0999
8145,-0.1253,0.0782,0.9615,0.0,0.4626
8161,-0.1262,0.0784,0.9648,0.0,0.5278
8178,-0.1247,0.0771,0.9627,0.0,0.2232
8194,-0.1238,0.0866,0.9741,0.0,0.0185
8209,-0.1337,0.0627,0.9793,0.0,0.0701
8226,-0.1197,0.0891,0.9653,0.0,0.4505
8242,-0.1272,0.0709,0.9547,0.0,0.5383
8257,-0.1297,0.0881,0.9778,0.0,0.1885
8273,-0.1227,0.0623,0.9553,0.0,0.0137
8290,-0.1271,0.0761,0.9929,0.0,0.0411
8306,-0.1207,0.0878,0.9476,0.0,0.4327
8322,-0.1273,0.069,0.9739,0.0,0.552
8338,-0.1243,0.0785,0.97,0.0,0.2925
8354,-0.1246,0.1029,0.9477,0.0,0.0354
8371,-0.1312,0.0841,0.9504,0.0,0.0
8387,-0.1266,0.0629,0.9753,0.0,0.3827
8403,-0.1234,0.088,0.9871,0.0,0.552
8419,-0.1233,0.0627,0.9513,0.0,0.39
8435,-0.1275,0.1014,0.9496,0.0,0.058
8451,-0.124,0.0619,0.98,0.0,0.0
8467,-0.126,0.0737,0.9673,0.0,0.3231
8484,-0.1266,0.0734,0.971,0.0,0.5455
8500,-0.1253,0.0816,0.9688,0.0,0.4601
8516,-0.1232,0.0739,0.9652,0.0,0.0894
8532,-0.1273,0.0576,0.9683,0.0,0.0
8548,-0.1274,0.054,0.9526,0.0,0.2152
8565,-0.1267,0.0641,0.9601,0.0,0.5222
8581,-0.1269,0.0788,0.9669,0.0,0.5045
8596,-0.1252,0.0801,0.9523,0.0,0.1088
8612,-0.1238,0.0716,0.9445,0.0,0.0
8629,-0.1276,0.0763,0.9561,0.0,0.1829
8645,-0.1282,0.0788,0.9594,0.0,0.5069
8661,-0.1257,0.0756,0.9639,0.0,0.523
8677,-0.1247,0.0774,0.9663,0.0,0.1547
8693,-0.1256,0.0788,0.9667,0.0,0.0
8709,-0.126,0.0783,0.9655,0.0,0.0717
8726,-0.1257,0.0797,0.9651,0.0,0.4714
8742,-0.1255,0.0833,0.9664,0.0,0.552
8758,-0.1273,0.0791,0.9698,0.0,0.2474
8774,-0.1216,0.0894,0.9613,0.0,0.0201
8790,-0.1348,0.0729,0.9837,0.0,0.0
8806,-0.131,0.0831,0.9749,0.0,0.4207
8823,-0.1211,0.0705,0.9668,0.0,0.5729
8839,-0.1242,0.0899,0.9513,0.0,0.357
8855,-0.1253,0.0563,0.9919,0.0,0.0475
8871,-0.1185,0.1023,0.9548,0.0,0.0
8887,-0.1321,0.0722,0.9513,0.0,0.365
8903,-0.1262,0.0944,0.984,0.0,0.5649
8920,-0.1249,0.0553,0.9612,0.0,0.4432
8936,-0.1264,0.0817,0.957,0.0,0.079
8952,-0.1277,0.0861,0.9508,0.0,0.0
8968,-0.1253,0.0891,0.9498,0.0,0.27
8984,-0.1223,0.0733,0.9488,0.0,0.5439
9000,-0.1266,0.0803,0.9694,0.0,0.5004
9017,-0.1253,0.0764,0.9626,0.0,0.12
9033,-0.1262,0.0797,0.9624,0.0,0.0
9049,-0.1264,0.0785,0.9577,0.0,0.1603
9065,-0.1264,0.0782,0.9636,0.0,0.5133
9081,-0.1258,0.0778,0.968,0.0,0.5455
9097,-0.1257,0.0788,0.9684,0.0,0.1877
9114,-0.1259,0.0794,0.9632,0.0,0.0073
9130,-0.1271,0.0698,0.9917,0.0,0.0459
9146,-0.121,0.0771,0.9753,0.0,0.4666
9162,-0.1226,0.0815,0.9439,0.0,0.5762
9178,-0.1325,0.1149,0.9416,0.0,0.4182
9196,-0.1222,0.0885,0.9698,0.0,0.0685
9212,-0.125,0.0769,0.9778,0.0,0.0
9228,-0.1265,0.0803,0.9645,0.0,0.3078
9244,-0.1246,0.0758,0.9622,0.0,0.5609
9260,-0.1252,0.0791,0.9657,0.0,0.4867
9277,-0.1255,0.079,0.9624,0.0,0.1088
9293,-0.1259,0.0797,0.9644,0.0,0.0
9308,-0.1256,0.0782,0.9654,0.0,0.2917
9324,-0.1261,0.0785,0.9654,0.0,0.5463
9341,-0.125,0.0779,0.9648,0.0,0.4932
9357,-0.1253,0.0784,0.965,0.0,0.1104
9373,-0.1251,0.0785,0.9652,0.0,0.0
9389,-0.1258,0.079,0.9659,0.0,0.1668
9405,-0.1252,0.0796,0.9656,0.0,0.5069
9421,-0.1267,0.078,0.9674,0.0,0.5222
9438,-0.126,0.0778,0.9628,0.0,0.1619
9454,-0.1252,0.0781,0.9632,0.0,0.0032
9470,-0.1255,0.0784,0.9643,0.0,0.0653
9486,-0.1251,0.0774,0.9623,0.0,0.4585
9502,-0.1259,0.0784,0.9649,0.0,0.5472
9519,-0.1262,0.0787,0.9644,0.0,0.2498
9535,-0.126,0.0789,0.9646,0.0,0.0298
9550,-0.1252,0.0787,0.963,0.0,0.0451
9566,-0.126,0.0788,0.9653,0.0,0.4489
9583,-0.1258,0.0783,0.9637,0.0,0.5488
9599,-0.1259,0.0779,0.9652,0.0,0.2748
9614,-0.1261,0.078,0.9651,0.0,0.0153
9630,-0.1259,0.0784,0.9648,0.0,0.0218
9647,-0.1254,0.0793,0.9657,0.0,0.4368
9663,-0.1255,0.0786,0.9633,0.0,0.5536
9679,-0.1246,0.0782,0.9639,0.0,0.3046
9695,-0.126,0.0787,0.965,0.0,0.0371
9711,-0.1249,0.0779,0.9616,0.0,0.0
9728,-0.1256,0.078,0.9673,0.0,0.3819
9744,-0.1257,0.0801,0.9667,0.0,0.5568
9760,-0.1252,0.0803,0.9642,0.0,0.4037
9776,-0.1265,0.0779,0.9657,0.0,0.0661
9792,-0.1256,0.079,0.9622,0.0,0.0
9808,-0.1254,0.0777,0.9674,0.0,0.307
9825,-0.1273,0.0797,0.9677,0.0,0.5407
9841,-0.1247,0.0753,0.9588,0.0,0.4626
9856,-0.1255,0.082,0.976,0.0,0.0709
9873,-0.1238,0.0895,0.9571,0.0,0.0
9889,-0.1216,0.0662,0.9639,0.0,0.2812
9905,-0.127,0.0804,0.9745,0.0,0.5318
9921,-0.1254,0.0793,0.9602,0.0,0.4763
9937,-0.1251,0.0773,0.9669,0.0,0.1023
9953,-0.1257,0.0739,0.9661,0.0,0.0
9969,-0.1267,0.0759,0.9617,0.0,0.1652
9986,-0.1262,0.0792,0.9627,0.0,0.5004
10002,-0.1252,0.0771,0.9686,0.0,0.5254
10018,-0.1246,0.0783,0.9678,0.0,0.17
10034,-0.1254,0.0819,0.9687,0.0,0.004
10050,-0.1262,0.0808,0.9621,0.0,0.0572
10067,-0.1261,0.0777,0.969,0.0,0.4601
10083,-0.1262,0.0772,0.9641,0.0,0.5568
10098,-0.1253,0.0786,0.9654,0.0,0.195
10114,-0.1265,0.079,0.9637,0.0,0.0129
10131,-0.1259,0.0796,0.9639,0.0,0.033
10147,-0.1247,0.0793,0.9651,0.0,0.4497
10163,-0.1264,0.0794,0.9648,0.0,0.5665
10179,-0.1258,0.0775,0.9644,0.0,0.3086
10195,-0.1251,0.0784,0.964,0.0,0.0379
10212,-0.1253,0.0789,0.9651,0.0,0.0
10228,-0.1252,0.0782,0.9641,0.0,0.3972
10243,-0.1258,0.0782,0.9667,0.0,0.5762
10259,-0.1258,0.0774,0.9645,0.0,0.3505
10276,-0.1242,0.0796,0.9636,0.0,0.0419
10292,-0.1265,0.0786,0.9656,0.0,0.0
10308,-0.1254,0.0793,0.965,0.0,0.3803
10324,-0.1254,0.0784,0.9654,0.0,0.5745
10340,-0.1257,0.0794,0.9646,0.0,0.4368
10357,-0.126,0.0786,0.9645,0.0,0.0765
10373,-0.1251,0.0783,0.9633,0.0,0.0
10389,-0.1255,0.0778,0.9635,0.0,0.2893
10405,-0.1254,0.0776,0.9625,0.0,0.5528
10421,-0.1252,0.0784,0.9634,0.0,0.4891
10437,-0.1262,0.0789,0.9644,0.0,0.1104
10454,-0.1258,0.0779,0.9649,0.0,0.0
10470,-0.1247,0.0776,0.9635,0.0,0.1636
10485,-0.1249,0.0793,0.9654,0.0,0.5415
10501,-0.1257,0.0788,0.9659,0.0,0.5101
10519,-0.1264,0.078,0.965,0.0,0.2232
10535,-0.125,0.0791,0.9637,0.0,0.0193
10551,-0.1251,0.0792,0.9653,0.0,0.0
10567,-0.1257,0.0783,0.9665,0.0,0.4424
10583,-0.1264,0.0787,0.9657,0.0,0.5826
10600,-0.1259,0.0779,0.9644,0.0,0.3441
10616,-0.1261,0.0791,0.9648,0.0,0.0443
10632,-0.1259,0.0783,0.9649,0.0,0.0
10648,-0.1265,0.079,0.9636,0.0,0.3811
10664,-0.1252,0.0794,0.9664,0.0,0.5729
10681,-0.1257,0.0794,0.9636,0.0,0.436
10697,-0.1255,0.0783,0.9681,0.0,0.0725
10713,-0.1227,0.0785,0.9633,0.0,0.0
10729,-0.1272,0.0654,0.9975,0.0,0.2925
10745,-0.1293,0.0609,0.9717,0.0,0.5512
10761,-0.1248,0.0917,0.9693,0.0,0.4972
10778,-0.1245,0.0718,0.954,0.0,0.112
10794,-0.1272,0.0725,0.9672,0.0,0.0
10810,-0.1284,0.0808,0.9666,0.0,0.1708
10826,-0.125,0.073,0.9612,0.0,0.5222
10842,-0.1257,0.0772,0.9631,0.0,0.5496
10858,-0.1245,0.077,0.9632,0.0,0.1716
10875,-0.1242,0.0809,0.9679,0.0,0.004
10891,-0.1258,0.077,0.9674,0.0,0.058
10907,-0.1235,0.0766,0.9614,0.0,0.473
10923,-0.1275,0.0757,0.9746,0.0,0.5737
10939,-0.1286,0.0722,0.9846,0.0,0.278
10955,-0.1254,0.0825,0.9751,0.0,0.025
10972,-0.1255,0.0845,0.9712,0.0,0.0
10988,-0.1298,0.0905,0.9824,0.0,0.4279
11004,-0.1253,0.082,0.9654,0.0,0.5826
11020,-0.1254,0.0762,0.963,0.0,0.3844
11036,-0.1254,0.0787,0.9653,0.0,0.0572
11053,-0.1263,0.0783,0.9642,0.0,0.0
11069,-0.1255,0.0783,0.9659,0.0,0.3521
11085,-0.1257,0.08,0.9661,0.0,0.5649
11101,-0.1259,0.079,0.9677,0.0,0.4513
11117,-0.1262,0.0767,0.9659,0.0,0.0814
11133,-0.126,0.0784,0.9642,0.0,0.0
11149,-0.1207,0.0825,0.9384,0.0,0.2506
11166,-0.1236,0.0759,0.9557,0.0,0.5399
11182,-0.125,0.0793,0.962,0.0,0.5053
11198,-0.1258,0.0789,0.9636,0.0,0.1241
11214,-0.1269,0.0778,0.9696,0.0,0.0
11230,-0.1262,0.0766,0.9774,0.0,0.1281
11247,-0.1279,0.0817,0.9765,0.0,0.5061
11263,-0.1265,0.0811,0.9632,0.0,0.5504
11278,-0.1267,0.0811,0.9733,0.0,0.1442
11294,-0.1297,0.0827,0.983,0.0,0.0
11311,-0.1306,0.0818,0.9859,0.0,0.0975
11327,-0.1192,0.0761,0.9298,0.0,0.494
11343,-0.1281,0.0826,0.9745,0.0,0.5649
11359,-0.1249,0.0786,0.9606,0.0,0.2361
11375,-0.1252,0.0786,0.9629,0.0,0.0201
11392,-0.1262,0.0787,0.9669,0.0,0.0048
11408,-0.1263,0.0787,0.9641,0.0,0.4424
11423,-0.1255,0.0788,0.9642,0.0,0.5794
11439,-0.1261,0.0775,0.9649,0.0,0.2683
11456,-0.1253,0.0785,0.9657,0.0,0.0298
11472,-0.1259,0.079,0.9652,0.0,0.0
11488,-0.125,0.0789,0.9642,0.0,0.4279
11504,-0.125,0.0785,0.9642,0.0,0.5891
11520,-0.1258,0.0783,0.966,0.0,0.3916
11537,-0.1258,0.0778,0.9652,0.0,0.0596
11553,-0.1247,0.0786,0.9628,0.0,0.0
11569,-0.126,0.0792,0.9661,0.0,0.3666
11585,-0.126,0.0786,0.9663,0.0,0.5907
11601,-0.1256,0.0786,0.9639,0.0,0.4803
11617,-0.1264,0.0787,0.9644,0.0,0.0894
11634,-0.1245,0.0785,0.9636,0.0,0.0
11650,-0.1256,0.0788,0.9641,0.0,0.253
11665,-0.1253,0.0794,0.9634,0.0,0.5794
11682,-0.1256,0.0788,0.9661,0.0,0.498
11698,-0.126,0.0779,0.9648,0.0,0.1007
11714,-0.1268,0.0789,0.965,0.0,0.0
11730,-0.1254,0.0788,0.9645,0.0,0.2136
11746,-0.1262,0.0784,0.9642,0.0,0.5431
11762,-0.1252,0.0793,0.965,0.0,0.5504
11779,-0.1253,0.0779,0.9659,0.0,0.1539
11795,-0.1258,0.0779,0.965,0.0,0.0
11810,-0.1258,0.0782,0.9642,0.0,0.1756
11826,-0.1267,0.0775,0.9641,0.0,0.5359
11843,-0.1254,0.0783,0.9644,0.0,0.5971
11859,-0.1256,0.079,0.9653,0.0,0.2305
11876,-0.1257,0.0788,0.9649,0.0,0.0201
11892,-0.1261,0.0789,0.9649,0.0,0.0
11908,-0.125,0.0782,0.9644,0.0,0.4537
11924,-0.1259,0.079,0.9637,0.0,0.6052
11940,-0.1257,0.0786,0.9644,0.0,0.3666
11956,-0.1253,0.0786,0.964,0.0,0.0491
11973,-0.1261,0.0789,0.9642,0.0,0.0
11989,-0.1248,0.0791,0.9646,0.0,0.3997
12004,-0.126,0.0777,0.9654,0.0,0.6148
12021,-0.1243,0.0771,0.9668,0.0,0.4037
12037,-0.1284,0.0755,0.9692,0.0,0.0516
12053,-0.1282,0.0849,0.9587,0.0,0.0
12069,-0.1249,0.0829,0.9695,0.0,0.3795
12085,-0.1272,0.0816,0.9728,0.0,0.6084
12101,-0.1257,0.0919,0.9505,0.0,0.4932
12118,-0.1257,0.0625,0.9796,0.0,0.0902
12134,-0.1315,0.0913,0.9681,0.0,0.0
12150,-0.124,0.0864,0.9744,0.0,0.2667
12166,-0.1263,0.0803,0.9653,0.0,0.5826
12182,-0.1256,0.0794,0.9625,0.0,0.5576
12198,-0.125,0.078,0.9663,0.0,0.1362
12215,-0.1274,0.0775,0.9765,0.0,0.0
12231,-0.1221,0.0756,0.9543,0.0,0.1354
12246,-0.1244,0.0747,0.9702,0.0,0.5858
12262,-0.1252,0.0721,0.964,0.0,0.5858
12279,-0.127,0.0787,0.9761,0.0,0.1507
12295,-0.126,0.079,0.9678,0.0,0.0
12311,-0.1243,0.0782,0.9458,0.0,0.0943
12327,-0.1239,0.0811,0.9641,0.0,0.5496
12343,-0.1266,0.085,0.9679,0.0,0.6439
12359,-0.1242,0.077,0.9609,0.0,0.2619
12376,-0.1287,0.0902,0.9793,0.0,0.0193
12392,-0.1219,0.0749,0.9428,0.0,0.0
12408,-0.1244,0.0847,0.9554,0.0,0.4948
12424,-0.1254,0.0785,0.9681,0.0,0.6673
12440,-0.1244,0.0766,0.9652,0.0,0.3884
12457,-0.1249,0.0811,0.9682,0.0,0.054
12473,-0.1241,0.0791,0.9639,0.0,0.0
12489,-0.1257,0.0746,0.9692,0.0,0.4271
12505,-0.1262,0.0855,0.9573,0.0,0.6648
12521,-0.1246,0.0772,0.9659,0.0,0.5141
12537,-0.1246,0.0799,0.9604,0.0,0.0838
12554,-0.1251,0.0773,0.9629,0.0,0.0
12570,-0.1272,0.0822,0.9567,0.0,0.3344
12586,-0.1247,0.0775,0.9683,0.0,0.6423
12602,-0.1243,0.0761,0.9727,0.0,0.5891
12618,-0.1267,0.0802,0.962,0.0,0.1281
12634,-0.1257,0.0803,0.9676,0.0,0.0
12651,-0.1252,0.0769,0.9645,0.0,0.1853
12667,-0.1245,0.0794,0.9601,0.0,0.6036
12682,-0.1264,0.0786,0.9627,0.0,0.6044
12698,-0.1251,0.0792,0.9618,0.0,0.1442
12715,-0.1246,0.0794,0.9646,0.0,0.0
12731,-0.1261,0.0807,0.9671,0.0,0.1523
12747,-0.1239,0.0762,0.9736,0.0,0.5987
12763,-0.1242,0.0799,0.9699,0.0,0.6568
12779,-0.1255,0.0799,0.9509,0.0,0.2248
12796,-0.1264,0.0772,0.9683,0.0,0.0081
12812,-0.1246,0.0784,0.9649,0.0,0.025
12828,-0.1265,0.0799,0.963,0.0,0.5455
12844,-0.1257,0.0792,0.9654,0.0,0.6914
12860,-0.1251,0.0789,0.9643,0.0,0.3457
12876,-0.1248,0.0779,0.9644,0.0,0.0411
12893,-0.1261,0.0793,0.9651,0.0,0.0
12909,-0.1264,0.0792,0.966,0.0,0.4746
12925,-0.1261,0.0781,0.9628,0.0,0.693
12941,-0.126,0.0789,0.9641,0.0,0.4875
12957,-0.126,0.0777,0.9637,0.0,0.0709
12973,-0.1261,0.0784,0.9648,0.0,0.0
12990,-0.1252,0.0792,0.9666,0.0,0.3924
13006,-0.1249,0.0783,0.9662,0.0,0.6681
13021,-0.1263,0.0793,0.9651,0.0,0.5117
13037,-0.1254,0.0786,0.9636,0.0,0.0814
13054,-0.1249,0.0802,0.9662,0.0,0.0
13070,-0.1255,0.0782,0.9659,0.0,0.3537
13086,-0.126,0.0789,0.9664,0.0,0.664
13102,-0.1252,0.0784,0.9658,0.0,0.5947
13118,-0.125,0.0786,0.9657,0.0,0.1233
13135,-0.1251,0.0786,0.9646,0.0,0.0
13151,-0.1251,0.0786,0.9631,0.0,0.2136
13167,-0.1252,0.08,0.9639,0.0,0.6148
13184,-0.1267,0.0787,0.965,0.0,0.689
13200,-0.127,0.0795,0.965,0.0,0.3449
13217,-0.1253,0.0786,0.9642,0.0,0.0346
13233,-0.1251,0.0784,0.964,0.0,0.0
13249,-0.1256,0.0786,0.9657,0.0,0.4746
13265,-0.1255,0.0789,0.9649,0.0,0.6914
13281,-0.1251,0.079,0.9641,0.0,0.4803
13297,-0.1264,0.0777,0.9656,0.0073,0.0733
13314,-0.1243,0.0778,0.975,0.0,0.0
13330,-0.1269,0.0708,0.9825,0.0,0.3892
13345,-0.1278,0.0929,0.972,0.0,0.6842
13362,-0.1258,0.0796,0.9631,0.0,0.5069
13378,-0.1258,0.0798,0.9637,0.0,0.0814
13393,-0.1259,0.0772,0.968,0.0,0.0
13409,-0.1251,0.08,0.9646,0.0,0.4279
13426,-0.1251,0.0791,0.9638,0.0,0.6648
13442,-0.1261,0.0795,0.963,0.0,0.5278
13458,-0.1257,0.0762,0.9637,0.0,0.0854
13474,-0.1258,0.0811,0.9653,0.0,0.0
13490,-0.1255,0.0798,0.9652,0.0,0.3135
13506,-0.1246,0.0791,0.9632,0.0,0.6278
13523,-0.1258,0.0793,0.9638,0.0,0.5778
13539,-0.1257,0.0791,0.9643,0.0,0.1305
13555,-0.1255,0.078,0.9657,0.0,0.0
13571,-0.1253,0.0786,0.9642,0.0,0.1772
13587,-0.1249,0.0795,0.9645,0.0,0.5794
13603,-0.126,0.0787,0.9656,0.0,0.6181
13620,-0.1257,0.0794,0.9646,0.0,0.1926
13636,-0.1266,0.0786,0.9652,0.0,0.0056
13652,-0.1259,0.0782,0.9648,0.0,0.0556
13668,-0.1264,0.0791,0.9664,0.0,0.523
13684,-0.1258,0.0782,0.9634,0.0,0.631
13701,-0.1267,0.0783,0.9744,0.0,0.299
13717,-0.1266,0.0749,0.9639,0.0,0.0314
13732,-0.1252,0.0872,0.9641,0.0,0.0346
13748,-0.124,0.087,0.9536,0.0,0.4859
13765,-0.1256,0.0818,0.9633,0.0,0.6108
13781,-0.1248,0.0766,0.9661,0.0,0.3094
13797,-0.1267,0.0753,0.9726,0.0,0.0363
13813,-0.1257,0.0782,0.9687,0.0,0.0
13829,-0.1259,0.0807,0.9628,0.0,0.4263
13845,-0.127,0.0772,0.9669,0.0,0.5899
13862,-0.1245,0.0859,0.9736,0.0,0.3989
13878,-0.1245,0.0748,0.9613,0.0,0.0636
13894,-0.127,0.0808,0.9637,0.0,0.0
13910,-0.1256,0.0731,0.9706,0.0,0.3433
13926,-0.1259,0.0766,0.9628,0.0,0.5488
13943,-0.1257,0.0826,0.9712,0.0,0.4553
13959,-0.1255,0.0806,0.9701,0.0,0.0878
13975,-0.1265,0.0803,0.971,0.0,0.0
13991,-0.1253,0.0794,0.9623,0.0,0.2361
14007,-0.124,0.0812,0.9533,0.0,0.5069
14023,-0.1267,0.0781,0.9648,0.0,0.4746
14040,-0.128,0.0828,0.9757,0.0,0.12
14056,-0.1255,0.0847,0.9625,0.0,0.0
14072,-0.1248,0.0819,0.9593,0.0,0.1136
14088,-0.1258,0.0799,0.9698,0.0,0.4714
14104,-0.1254,0.0819,0.9741,0.0,0.5069
14120,-0.1241,0.0789,0.9603,0.0,0.1926
14137,-0.1258,0.078,0.9731,0.0,0.0137
14153,-0.1253,0.0771,0.9617,0.0,0.0234
14168,-0.1267,0.0798,0.9639,0.0,0.4593
14184,-0.1252,0.0745,0.9668,0.0,0.5262
14201,-0.1262,0.0761,0.9653,0.0,0.2232
14217,-0.126,0.078,0.9653,0.0,0.0218
14233,-0.1265,0.0792,0.9759,0.0,0.0105
14249,-0.1273,0.0801,0.9678,0.0,0.4199
14265,-0.1257,0.0808,0.9661,0.0,0.5488
14282,-0.1249,0.077,0.9694,0.0,0.3263
14298,-0.1259,0.0794,0.9637,0.0,0.0387
14313,-0.1253,0.0784,0.9638,0.0,0.0
14329,-0.1266,0.0793,0.9614,0.0,0.4053
14346,-0.1268,0.083,0.9699,0.0,0.5609
14362,-0.1253,0.077,0.9739,0.0,0.3707
14378,-0.1255,0.0782,0.9683,0.0,0.0475
14394,-0.1254,0.0819,0.9594,0.0,0.0
14410,-0.1257,0.0785,0.959,0.0,0.3521
14427,-0.1255,0.0791,0.9642,0.0,0.5609
14443,-0.1251,0.0792,0.9644,0.0,0.4529
14458,-0.1261,0.078,0.964,0.0,0.062
14474,-0.1265,0.0788,0.9658,0.0,0.0
14491,-0.1265,0.0785,0.9647,0.0,0.3328
14507,-0.1246,0.0828,0.9735,0.0,0.5206
14524,-0.1278,0.082,0.9596,0.0,0.5407
14540,-0.1249,0.0922,0.9853,0.0,0.1781
14557,-0.1302,0.0689,0.9913,0.0,0.0016
14573,-0.1289,0.0826,0.9651,0.0,0.058
14589,-0.1221,0.0691,0.9592,0.0,0.4811
14605,-0.1266,0.0878,0.9691,0.0,0.5826
14621,-0.1267,0.0799,0.9888,0.0,0.2812
14637,-0.1257,0.0805,0.9381,0.0,0.0314
14654,-0.1237,0.0686,0.982,0.0,0.0
14670,-0.1275,0.0756,0.9834,0.0,0.4279
14685,-0.1247,0.0854,0.9722,0.0,0.5971
14702,-0.1244,0.076,0.9672,0.0,0.3247
14718,-0.1251,0.0806,0.958,0.0,0.0403
14734,-0.1205,0.0677,0.9538,0.0,0.0
14750,-0.1229,0.0918,0.9827,0.0,0.4182
14766,-0.1262,0.0802,0.971,0.0,0.6254
14782,-0.1259,0.0825,0.9631,0.0,0.4553
14799,-0.1259,0.0777,0.9651,0.0,0.0717
14815,-0.1249,0.0812,0.9639,0.0,0.0
14831,-0.1241,0.0787,0.966,0.0,0.3707
14847,-0.1266,0.0859,0.9933,0.0,0.6697
14863,-0.1226,0.1125,0.9269,0.0,0.5762
14879,-0.1272,0.0909,0.9353,0.0,0.112
14896,-0.1319,0.0751,0.9947,0.0012,0.0
14912,-0.1249,0.0747,0.9582,0.0,0.2321
14927,-0.1234,0.0756,0.9606,0.0,0.6858
14944,-0.1259,0.0795,0.9674,0.0,0.6181
14960,-0.1256,0.0791,0.9665,0.0,0.1281
14975,-0.1261,0.0704,0.9663,0.0,0.0
14991,-0.1209,0.0685,0.936,0.0,0.2941
15008,-0.1311,0.0548,0.9716,0.0,0.689
15024,-0.124,0.0819,0.9655,0.0,0.656
15040,-0.1266,0.0715,0.9608,0.0,0.1515
15056,-0.1321,0.0955,1.0098,0.0,0.0
15072,-0.1246,0.0807,0.995,0.0,0.1442
15088,-0.1262,0.0857,0.9444,0.0,0.6519
15105,-0.1332,0.0787,0.9715,0.0,0.7212
15121,-0.129,0.0837,0.952,0.0,0.2627
15137,-0.1221,0.0922,0.9465,0.0,0.0089
15153,-0.1269,0.0843,0.9662,0.0,0.0137
15169,-0.1239,0.086,0.9607,0.0,0.5971
